word;color;congruent;corrAns;trials.thisRepN;trials.thisTrialN;trials.thisN;trials.thisIndex;Stim timestamp;key pressed;is correct;delta T;response_keybord.started;response_keybord.stopped;participant;session;date;expName;psychopyVersion;frameRate;
;;;;;;;;;;;;;;Sasha;001;2022_Feb_21_1450;stroop_pup;2021.2.3;60.013779170807645;
green;green;1;g;0;0;0;4;40.58089949993882;g;1;1.9508394000586122;40.58089949993882;None;Sasha;001;2022_Feb_21_1450;stroop_pup;2021.2.3;60.013779170807645;
green;red;0;r;0;1;1;5;44.579289700021036;r;1;0.7970475000329316;44.579289700021036;None;Sasha;001;2022_Feb_21_1450;stroop_pup;2021.2.3;60.013779170807645;
blue;green;0;g;0;2;2;10;47.41507630003616;g;1;1.2539390000747517;47.41507630003616;None;Sasha;001;2022_Feb_21_1450;stroop_pup;2021.2.3;60.013779170807645;
blue;red;0;r;0;3;3;9;50.709618099965155;r;1;0.6039855999406427;50.709618099965155;None;Sasha;001;2022_Feb_21_1450;stroop_pup;2021.2.3;60.013779170807645;
green;yellow;0;y;0;4;4;7;53.34883589996025;y;1;0.6301761999493465;53.34883589996025;None;Sasha;001;2022_Feb_21_1450;stroop_pup;2021.2.3;60.013779170807645;
blue;blue;1;b;0;5;5;8;56.009602200007066;b;1;0.9277527000522241;56.009602200007066;None;Sasha;001;2022_Feb_21_1450;stroop_pup;2021.2.3;60.013779170807645;
yellow;red;0;r;0;6;6;13;59.01008619996719;r;1;0.6070092000300065;59.01008619996719;None;Sasha;001;2022_Feb_21_1450;stroop_pup;2021.2.3;60.013779170807645;
yellow;yellow;1;y;0;7;7;12;61.659988799947314;y;1;0.44219620001967996;61.659988799947314;None;Sasha;001;2022_Feb_21_1450;stroop_pup;2021.2.3;60.013779170807645;
red;yellow;0;y;0;8;8;3;64.14466370001901;y;1;0.3762348999734968;64.14466370001901;None;Sasha;001;2022_Feb_21_1450;stroop_pup;2021.2.3;60.013779170807645;
yellow;blue;0;b;0;9;9;15;66.56033260002732;b;1;0.6766778000164777;66.56033260002732;None;Sasha;001;2022_Feb_21_1450;stroop_pup;2021.2.3;60.013779170807645;
green;blue;0;b;0;10;10;6;69.27570879994892;b;1;0.5595068999100477;69.27570879994892;None;Sasha;001;2022_Feb_21_1450;stroop_pup;2021.2.3;60.013779170807645;
blue;yellow;0;y;0;11;11;11;71.86334239994176;y;1;0.4842826999956742;71.86334239994176;None;Sasha;001;2022_Feb_21_1450;stroop_pup;2021.2.3;60.013779170807645;
red;blue;0;b;0;12;12;2;74.39782600000035;b;1;0.6547376998933032;74.39782600000035;None;Sasha;001;2022_Feb_21_1450;stroop_pup;2021.2.3;60.013779170807645;
yellow;green;0;g;0;13;13;14;77.10899350000545;y;0;0.5611493000760674;77.10899350000545;None;Sasha;001;2022_Feb_21_1450;stroop_pup;2021.2.3;60.013779170807645;
red;green;0;g;0;14;14;1;79.7135751999449;g;1;0.3538788999430835;79.7135751999449;None;Sasha;001;2022_Feb_21_1450;stroop_pup;2021.2.3;60.013779170807645;
red;red;1;r;0;15;15;0;82.10899049998261;r;1;0.6431812000228092;82.10899049998261;None;Sasha;001;2022_Feb_21_1450;stroop_pup;2021.2.3;60.013779170807645;
red;red;1;r;1;0;16;0;84.79235450003762;r;1;0.485297100036405;84.79235450003762;None;Sasha;001;2022_Feb_21_1450;stroop_pup;2021.2.3;60.013779170807645;
green;red;0;r;1;1;17;5;87.32513140002266;r;1;0.43937590008135885;87.32513140002266;None;Sasha;001;2022_Feb_21_1450;stroop_pup;2021.2.3;60.013779170807645;
red;blue;0;b;1;2;18;2;89.81356559996493;b;1;0.6401115999324247;89.81356559996493;None;Sasha;001;2022_Feb_21_1450;stroop_pup;2021.2.3;60.013779170807645;
blue;green;0;g;1;3;19;10;92.49183489999268;g;1;0.6403247000416741;92.49183489999268;None;Sasha;001;2022_Feb_21_1450;stroop_pup;2021.2.3;60.013779170807645;
yellow;blue;0;b;1;4;20;15;95.19154769997112;b;1;0.7271915000164881;95.19154769997112;None;Sasha;001;2022_Feb_21_1450;stroop_pup;2021.2.3;60.013779170807645;
yellow;green;0;g;1;5;21;14;97.95885519997682;y;0;0.5350600000238046;97.95885519997682;None;Sasha;001;2022_Feb_21_1450;stroop_pup;2021.2.3;60.013779170807645;
green;green;1;g;1;6;22;4;100.52581739996094;y;0;0.4286300999810919;100.52581739996094;None;Sasha;001;2022_Feb_21_1450;stroop_pup;2021.2.3;60.013779170807645;
yellow;yellow;1;y;1;7;23;12;103.01537599996664;y;1;0.43976620002649724;103.01537599996664;None;Sasha;001;2022_Feb_21_1450;stroop_pup;2021.2.3;60.013779170807645;
yellow;red;0;r;1;8;24;13;105.49222050001845;r;1;0.5102939000353217;105.49222050001845;None;Sasha;001;2022_Feb_21_1450;stroop_pup;2021.2.3;60.013779170807645;
red;green;0;g;1;9;25;1;108.04919859999791;g;1;0.5810191000346094;108.04919859999791;None;Sasha;001;2022_Feb_21_1450;stroop_pup;2021.2.3;60.013779170807645;
blue;red;0;r;1;10;26;9;110.67940190003719;r;1;0.5424860999919474;110.67940190003719;None;Sasha;001;2022_Feb_21_1450;stroop_pup;2021.2.3;60.013779170807645;
blue;blue;1;b;1;11;27;8;113.2581385000376;b;1;0.48755700001493096;113.2581385000376;None;Sasha;001;2022_Feb_21_1450;stroop_pup;2021.2.3;60.013779170807645;
red;yellow;0;y;1;12;28;3;115.79125070001464;y;1;0.3837250000797212;115.79125070001464;None;Sasha;001;2022_Feb_21_1450;stroop_pup;2021.2.3;60.013779170807645;
green;yellow;0;y;1;13;29;7;118.2135429000482;y;1;0.3717661000555381;118.2135429000482;None;Sasha;001;2022_Feb_21_1450;stroop_pup;2021.2.3;60.013779170807645;
green;blue;0;b;1;14;30;6;120.62430829997174;b;1;0.6785194999538362;120.62430829997174;None;Sasha;001;2022_Feb_21_1450;stroop_pup;2021.2.3;60.013779170807645;
blue;yellow;0;y;1;15;31;11;123.3408845999511;y;1;0.5033853000495583;123.3408845999511;None;Sasha;001;2022_Feb_21_1450;stroop_pup;2021.2.3;60.013779170807645;
blue;yellow;0;y;2;0;32;11;125.87470279994886;y;1;0.35485670005436987;125.87470279994886;None;Sasha;001;2022_Feb_21_1450;stroop_pup;2021.2.3;60.013779170807645;
red;yellow;0;y;2;1;33;3;128.27412379998714;y;1;0.36809569993056357;128.27412379998714;None;Sasha;001;2022_Feb_21_1450;stroop_pup;2021.2.3;60.013779170807645;
green;green;1;g;2;2;34;4;130.67984420002904;g;1;0.4880988000659272;130.67984420002904;None;Sasha;001;2022_Feb_21_1450;stroop_pup;2021.2.3;60.013779170807645;
yellow;red;0;r;2;3;35;13;133.21453500003554;b;0;0.6303886000532657;133.21453500003554;None;Sasha;001;2022_Feb_21_1450;stroop_pup;2021.2.3;60.013779170807645;
yellow;yellow;1;y;2;4;36;12;135.87461179995444;y;1;0.5352962999604642;135.87461179995444;None;Sasha;001;2022_Feb_21_1450;stroop_pup;2021.2.3;60.013779170807645;
blue;blue;1;b;2;5;37;8;138.44545949995518;b;1;0.4846248000394553;138.44545949995518;None;Sasha;001;2022_Feb_21_1450;stroop_pup;2021.2.3;60.013779170807645;
blue;green;0;g;2;6;38;10;140.97512640000787;g;1;0.9944868000457063;140.97512640000787;None;Sasha;001;2022_Feb_21_1450;stroop_pup;2021.2.3;60.013779170807645;
red;green;0;g;2;7;39;1;144.02931759995408;g;1;0.6579818999161944;144.02931759995408;None;Sasha;001;2022_Feb_21_1450;stroop_pup;2021.2.3;60.013779170807645;
red;blue;0;b;2;8;40;2;146.72358889994211;b;1;0.7412422000197694;146.72358889994211;None;Sasha;001;2022_Feb_21_1450;stroop_pup;2021.2.3;60.013779170807645;
yellow;green;0;g;2;9;41;14;149.51417009998113;y;0;0.5269377999939024;149.51417009998113;None;Sasha;001;2022_Feb_21_1450;stroop_pup;2021.2.3;60.013779170807645;
yellow;blue;0;b;2;10;42;15;152.07359849999193;b;1;0.9949592999182642;152.07359849999193;None;Sasha;001;2022_Feb_21_1450;stroop_pup;2021.2.3;60.013779170807645;
blue;red;0;r;2;11;43;9;155.11201209994033;r;1;0.6351972999982536;155.11201209994033;None;Sasha;001;2022_Feb_21_1450;stroop_pup;2021.2.3;60.013779170807645;
red;red;1;r;2;12;44;0;157.79755509993993;r;1;0.4360266000730917;157.79755509993993;None;Sasha;001;2022_Feb_21_1450;stroop_pup;2021.2.3;60.013779170807645;
green;yellow;0;y;2;13;45;7;160.27860600000713;y;1;0.48701540008187294;160.27860600000713;None;Sasha;001;2022_Feb_21_1450;stroop_pup;2021.2.3;60.013779170807645;
green;blue;0;b;2;14;46;6;162.79000519996043;b;1;0.6138542999979109;162.79000519996043;None;Sasha;001;2022_Feb_21_1450;stroop_pup;2021.2.3;60.013779170807645;
green;red;0;r;2;15;47;5;165.43975519994274;r;1;0.5972460999619216;165.43975519994274;None;Sasha;001;2022_Feb_21_1450;stroop_pup;2021.2.3;60.013779170807645;
blue;yellow;0;y;3;0;48;11;168.07776539993938;y;1;0.5720734000205994;168.07776539993938;None;Sasha;001;2022_Feb_21_1450;stroop_pup;2021.2.3;60.013779170807645;
blue;green;0;g;3;1;49;10;170.68991219997406;g;1;0.9602719999384135;170.68991219997406;None;Sasha;001;2022_Feb_21_1450;stroop_pup;2021.2.3;60.013779170807645;
red;yellow;0;y;3;2;50;3;173.7063758999575;y;1;0.4917866999749094;173.7063758999575;None;Sasha;001;2022_Feb_21_1450;stroop_pup;2021.2.3;60.013779170807645;
yellow;blue;0;b;3;3;51;15;176.2467366999481;b;1;0.6455379000399262;176.2467366999481;None;Sasha;001;2022_Feb_21_1450;stroop_pup;2021.2.3;60.013779170807645;
blue;red;0;r;3;4;52;9;178.92750730004627;r;1;0.6356090999906883;178.92750730004627;None;Sasha;001;2022_Feb_21_1450;stroop_pup;2021.2.3;60.013779170807645;
yellow;yellow;1;y;3;5;53;12;181.60763029998634;y;1;0.46862959989812225;181.60763029998634;None;Sasha;001;2022_Feb_21_1450;stroop_pup;2021.2.3;60.013779170807645;
green;red;0;r;3;6;54;5;184.11249179998413;r;1;0.8244629999389872;184.11249179998413;None;Sasha;001;2022_Feb_21_1450;stroop_pup;2021.2.3;60.013779170807645;
green;green;1;g;3;7;55;4;186.9724674000172;g;1;0.5858794000232592;186.9724674000172;None;Sasha;001;2022_Feb_21_1450;stroop_pup;2021.2.3;60.013779170807645;
green;blue;0;b;3;8;56;6;189.605938600027;b;1;0.7809966000495479;189.605938600027;None;Sasha;001;2022_Feb_21_1450;stroop_pup;2021.2.3;60.013779170807645;
green;yellow;0;y;3;9;57;7;192.4223081000382;y;1;0.48590880003757775;192.4223081000382;None;Sasha;001;2022_Feb_21_1450;stroop_pup;2021.2.3;60.013779170807645;
red;blue;0;b;3;10;58;2;194.93889390002005;b;1;0.8875915000680834;194.93889390002005;None;Sasha;001;2022_Feb_21_1450;stroop_pup;2021.2.3;60.013779170807645;
blue;blue;1;b;3;11;59;8;197.87686429999303;b;1;0.4818738999310881;197.87686429999303;None;Sasha;001;2022_Feb_21_1450;stroop_pup;2021.2.3;60.013779170807645;
red;green;0;g;3;12;60;1;200.38879849994555;r;0;0.5752034999895841;200.38879849994555;None;Sasha;001;2022_Feb_21_1450;stroop_pup;2021.2.3;60.013779170807645;
yellow;green;0;g;3;13;61;14;203.00513239996508;g;1;0.4034587999340147;203.00513239996508;None;Sasha;001;2022_Feb_21_1450;stroop_pup;2021.2.3;60.013779170807645;
yellow;red;0;r;3;14;62;13;205.45736669993494;r;1;0.6989085000241175;205.45736669993494;None;Sasha;001;2022_Feb_21_1450;stroop_pup;2021.2.3;60.013779170807645;
red;red;1;r;3;15;63;0;208.19327699998394;r;1;0.5673564999597147;208.19327699998394;None;Sasha;001;2022_Feb_21_1450;stroop_pup;2021.2.3;60.013779170807645;
blue;yellow;0;y;4;0;64;11;210.80589850002434;y;1;1.0966823999769986;210.80589850002434;None;Sasha;001;2022_Feb_21_1450;stroop_pup;2021.2.3;60.013779170807645;
blue;red;0;r;4;1;65;9;213.93859899998643;r;1;1.2273284000111744;213.93859899998643;None;Sasha;001;2022_Feb_21_1450;stroop_pup;2021.2.3;60.013779170807645;
red;green;0;g;4;2;66;1;217.20494169997983;g;1;0.9622659999877214;217.20494169997983;None;Sasha;001;2022_Feb_21_1450;stroop_pup;2021.2.3;60.013779170807645;
green;blue;0;b;4;3;67;6;220.23832759994548;b;1;0.6955702999839559;220.23832759994548;None;Sasha;001;2022_Feb_21_1450;stroop_pup;2021.2.3;60.013779170807645;
red;yellow;0;y;4;4;68;3;222.9768612999469;y;1;0.854376700008288;222.9768612999469;None;Sasha;001;2022_Feb_21_1450;stroop_pup;2021.2.3;60.013779170807645;
yellow;red;0;r;4;5;69;13;225.87265040003695;r;1;0.6251905000535771;225.87265040003695;None;Sasha;001;2022_Feb_21_1450;stroop_pup;2021.2.3;60.013779170807645;
yellow;blue;0;b;4;6;70;15;228.53803799999878;b;1;0.777265900047496;228.53803799999878;None;Sasha;001;2022_Feb_21_1450;stroop_pup;2021.2.3;60.013779170807645;
red;red;1;r;4;7;71;0;231.35949249996338;r;1;0.6904429000569507;231.35949249996338;None;Sasha;001;2022_Feb_21_1450;stroop_pup;2021.2.3;60.013779170807645;
green;green;1;g;4;8;72;4;234.08785509993322;g;1;0.4886914000380784;234.08785509993322;None;Sasha;001;2022_Feb_21_1450;stroop_pup;2021.2.3;60.013779170807645;
green;red;0;r;4;9;73;5;236.62320090003777;r;1;0.6551315999822691;236.62320090003777;None;Sasha;001;2022_Feb_21_1450;stroop_pup;2021.2.3;60.013779170807645;
yellow;green;0;g;4;10;74;14;239.32078930002172;g;1;0.6159680000273511;239.32078930002172;None;Sasha;001;2022_Feb_21_1450;stroop_pup;2021.2.3;60.013779170807645;
green;yellow;0;y;4;11;75;7;241.9708704999648;y;1;0.6676854999968782;241.9708704999648;None;Sasha;001;2022_Feb_21_1450;stroop_pup;2021.2.3;60.013779170807645;
blue;blue;1;b;4;12;76;8;244.69227260001935;b;1;0.5615944000892341;244.69227260001935;None;Sasha;001;2022_Feb_21_1450;stroop_pup;2021.2.3;60.013779170807645;
blue;green;0;g;4;13;77;10;247.28846780001186;g;1;0.7368272000458091;247.28846780001186;None;Sasha;001;2022_Feb_21_1450;stroop_pup;2021.2.3;60.013779170807645;
red;blue;0;b;4;14;78;2;250.05877010000404;b;1;0.8222081999992952;250.05877010000404;None;Sasha;001;2022_Feb_21_1450;stroop_pup;2021.2.3;60.013779170807645;
yellow;yellow;1;y;4;15;79;12;252.92805280000903;y;1;0.4337292000418529;252.92805280000903;None;Sasha;001;2022_Feb_21_1450;stroop_pup;2021.2.3;60.013779170807645;
green;yellow;0;y;5;0;80;7;255.42543049994856;y;1;0.4266076000640169;255.42543049994856;None;Sasha;001;2022_Feb_21_1450;stroop_pup;2021.2.3;60.013779170807645;
red;green;0;g;5;1;81;1;257.8871639999561;g;1;0.7365506000351161;257.8871639999561;None;Sasha;001;2022_Feb_21_1450;stroop_pup;2021.2.3;60.013779170807645;
yellow;yellow;1;y;5;2;82;12;260.6536799999885;y;1;0.4567416999489069;260.6536799999885;None;Sasha;001;2022_Feb_21_1450;stroop_pup;2021.2.3;60.013779170807645;
blue;blue;1;b;5;3;83;8;263.1594044000376;b;1;0.5147808999754488;263.1594044000376;None;Sasha;001;2022_Feb_21_1450;stroop_pup;2021.2.3;60.013779170807645;
blue;red;0;r;5;4;84;9;265.72155989997555;r;1;0.5973525999579579;265.72155989997555;None;Sasha;001;2022_Feb_21_1450;stroop_pup;2021.2.3;60.013779170807645;
yellow;blue;0;b;5;5;85;15;268.3589957000222;b;1;0.7483438999624923;268.3589957000222;None;Sasha;001;2022_Feb_21_1450;stroop_pup;2021.2.3;60.013779170807645;
red;red;1;r;5;6;86;0;271.1367668999592;r;1;0.7665956999408081;271.1367668999592;None;Sasha;001;2022_Feb_21_1450;stroop_pup;2021.2.3;60.013779170807645;
blue;green;0;g;5;7;87;10;273.9366928000236;g;1;0.5300004000309855;273.9366928000236;None;Sasha;001;2022_Feb_21_1450;stroop_pup;2021.2.3;60.013779170807645;
green;blue;0;b;5;8;88;6;276.52589339995757;b;1;0.8336282999953255;276.52589339995757;None;Sasha;001;2022_Feb_21_1450;stroop_pup;2021.2.3;60.013779170807645;
green;red;0;r;5;9;89;5;279.4032820999855;r;1;0.7960759999696165;279.4032820999855;None;Sasha;001;2022_Feb_21_1450;stroop_pup;2021.2.3;60.013779170807645;
yellow;green;0;g;5;10;90;14;282.23650190001354;g;1;0.9555080001009628;282.23650190001354;None;Sasha;001;2022_Feb_21_1450;stroop_pup;2021.2.3;60.013779170807645;
red;yellow;0;y;5;11;91;3;285.22447290003765;y;1;0.8677919000620022;285.22447290003765;None;Sasha;001;2022_Feb_21_1450;stroop_pup;2021.2.3;60.013779170807645;
red;blue;0;b;5;12;92;2;288.13635769998655;b;1;0.8649149000411853;288.13635769998655;None;Sasha;001;2022_Feb_21_1450;stroop_pup;2021.2.3;60.013779170807645;
yellow;red;0;r;5;13;93;13;291.04316610004753;r;1;0.6768067000666633;291.04316610004753;None;Sasha;001;2022_Feb_21_1450;stroop_pup;2021.2.3;60.013779170807645;
green;green;1;g;5;14;94;4;293.7580064999638;g;1;0.44355590001214296;293.7580064999638;None;Sasha;001;2022_Feb_21_1450;stroop_pup;2021.2.3;60.013779170807645;
blue;yellow;0;y;5;15;95;11;296.23607079999056;y;1;0.5514945999020711;296.23607079999056;None;Sasha;001;2022_Feb_21_1450;stroop_pup;2021.2.3;60.013779170807645;
green;red;0;r;6;0;96;5;298.8251937000314;r;1;0.5867996000451967;298.8251937000314;None;Sasha;001;2022_Feb_21_1450;stroop_pup;2021.2.3;60.013779170807645;
green;yellow;0;y;6;1;97;7;301.45378260000143;y;1;0.5510788999963552;301.45378260000143;None;Sasha;001;2022_Feb_21_1450;stroop_pup;2021.2.3;60.013779170807645;
blue;red;0;r;6;2;98;9;304.0572590000229;r;1;0.6898622000589967;304.0572590000229;None;Sasha;001;2022_Feb_21_1450;stroop_pup;2021.2.3;60.013779170807645;
green;blue;0;b;6;3;99;6;306.79055060003884;b;1;0.7529917000792921;306.79055060003884;None;Sasha;001;2022_Feb_21_1450;stroop_pup;2021.2.3;60.013779170807645;
blue;yellow;0;y;6;4;100;11;309.59084670001175;y;1;1.2748125999933109;309.59084670001175;None;Sasha;001;2022_Feb_21_1450;stroop_pup;2021.2.3;60.013779170807645;
blue;green;0;g;6;5;101;10;312.90263959998265;g;1;0.6168435999425128;312.90263959998265;None;Sasha;001;2022_Feb_21_1450;stroop_pup;2021.2.3;60.013779170807645;
green;green;1;g;6;6;102;4;315.5581314000301;g;1;0.43638269999064505;315.5581314000301;None;Sasha;001;2022_Feb_21_1450;stroop_pup;2021.2.3;60.013779170807645;
yellow;red;0;r;6;7;103;13;318.02617049997207;r;1;1.0060615999391302;318.02617049997207;None;Sasha;001;2022_Feb_21_1450;stroop_pup;2021.2.3;60.013779170807645;
red;blue;0;b;6;8;104;2;321.07316399994306;b;1;0.6163480000104755;321.07316399994306;None;Sasha;001;2022_Feb_21_1450;stroop_pup;2021.2.3;60.013779170807645;
yellow;blue;0;b;6;9;105;15;323.7258522999473;b;1;0.8120688999770209;323.7258522999473;None;Sasha;001;2022_Feb_21_1450;stroop_pup;2021.2.3;60.013779170807645;
red;red;1;r;6;10;106;0;326.5852181999944;r;1;0.5893533000489697;326.5852181999944;None;Sasha;001;2022_Feb_21_1450;stroop_pup;2021.2.3;60.013779170807645;
yellow;yellow;1;y;6;11;107;12;329.2258750000037;y;1;0.5160252000205219;329.2258750000037;None;Sasha;001;2022_Feb_21_1450;stroop_pup;2021.2.3;60.013779170807645;
red;yellow;0;y;6;12;108;3;331.78988980001304;y;1;0.38608860003296286;331.78988980001304;None;Sasha;001;2022_Feb_21_1450;stroop_pup;2021.2.3;60.013779170807645;
yellow;green;0;g;6;13;109;14;334.22566999995615;g;1;0.7565772000234574;334.22566999995615;None;Sasha;001;2022_Feb_21_1450;stroop_pup;2021.2.3;60.013779170807645;
blue;blue;1;b;6;14;110;8;337.0407283999957;b;1;0.77193049993366;337.0407283999957;None;Sasha;001;2022_Feb_21_1450;stroop_pup;2021.2.3;60.013779170807645;
red;green;0;g;6;15;111;1;339.85134629998356;g;1;0.5785531000001356;339.85134629998356;None;Sasha;001;2022_Feb_21_1450;stroop_pup;2021.2.3;60.013779170807645;
blue;blue;1;b;7;0;112;8;342.46817679994274;b;1;0.6071843999670818;342.46817679994274;None;Sasha;001;2022_Feb_21_1450;stroop_pup;2021.2.3;60.013779170807645;
yellow;yellow;1;y;7;1;113;12;345.11922480002977;y;1;0.4883744999533519;345.11922480002977;None;Sasha;001;2022_Feb_21_1450;stroop_pup;2021.2.3;60.013779170807645;
red;blue;0;b;7;2;114;2;347.65643430000637;b;1;0.8885908999945968;347.65643430000637;None;Sasha;001;2022_Feb_21_1450;stroop_pup;2021.2.3;60.013779170807645;
red;yellow;0;y;7;3;115;3;350.58548200002406;y;1;0.6973010000074282;350.58548200002406;None;Sasha;001;2022_Feb_21_1450;stroop_pup;2021.2.3;60.013779170807645;
green;yellow;0;y;7;4;116;7;353.3230640999973;y;1;0.4000329999253154;353.3230640999973;None;Sasha;001;2022_Feb_21_1450;stroop_pup;2021.2.3;60.013779170807645;
blue;red;0;r;7;5;117;9;355.7558102000039;b;0;0.614148199907504;355.7558102000039;None;Sasha;001;2022_Feb_21_1450;stroop_pup;2021.2.3;60.013779170807645;
blue;green;0;g;7;6;118;10;358.4012174999807;g;1;0.5217185999499634;358.4012174999807;None;Sasha;001;2022_Feb_21_1450;stroop_pup;2021.2.3;60.013779170807645;
red;red;1;r;7;7;119;0;360.95554290001746;r;1;0.6786816000239924;360.95554290001746;None;Sasha;001;2022_Feb_21_1450;stroop_pup;2021.2.3;60.013779170807645;
yellow;green;0;g;7;8;120;14;363.6748937999364;g;1;1.225550299976021;363.6748937999364;None;Sasha;001;2022_Feb_21_1450;stroop_pup;2021.2.3;60.013779170807645;
green;green;1;g;7;9;121;4;366.9396104000043;g;1;0.48313249996863306;366.9396104000043;None;Sasha;001;2022_Feb_21_1450;stroop_pup;2021.2.3;60.013779170807645;
red;green;0;g;7;10;122;1;369.46736160002183;g;1;0.3599079999839887;369.46736160002183;None;Sasha;001;2022_Feb_21_1450;stroop_pup;2021.2.3;60.013779170807645;
yellow;red;0;r;7;11;123;13;371.8747790999478;r;1;0.7021269999677315;371.8747790999478;None;Sasha;001;2022_Feb_21_1450;stroop_pup;2021.2.3;60.013779170807645;
green;blue;0;b;7;12;124;6;374.6055244000163;b;1;0.7714705000398681;374.6055244000163;None;Sasha;001;2022_Feb_21_1450;stroop_pup;2021.2.3;60.013779170807645;
blue;yellow;0;y;7;13;125;11;377.40549829998054;y;1;0.6471400000154972;377.40549829998054;None;Sasha;001;2022_Feb_21_1450;stroop_pup;2021.2.3;60.013779170807645;
green;red;0;r;7;14;126;5;380.0839683000231;r;1;0.7994939000345767;380.0839683000231;None;Sasha;001;2022_Feb_21_1450;stroop_pup;2021.2.3;60.013779170807645;
yellow;blue;0;b;7;15;127;15;382.92441320000216;b;1;1.0247409000294283;382.92441320000216;None;Sasha;001;2022_Feb_21_1450;stroop_pup;2021.2.3;60.013779170807645;
yellow;red;0;r;8;0;128;13;385.983610700001;r;1;0.8610292000230402;385.983610700001;None;Sasha;001;2022_Feb_21_1450;stroop_pup;2021.2.3;60.013779170807645;
green;yellow;0;y;8;1;129;7;388.8893914000364;y;1;0.6133908000774682;388.8893914000364;None;Sasha;001;2022_Feb_21_1450;stroop_pup;2021.2.3;60.013779170807645;
green;green;1;g;8;2;130;4;391.5504451999441;g;1;0.5723378999391571;391.5504451999441;None;Sasha;001;2022_Feb_21_1450;stroop_pup;2021.2.3;60.013779170807645;
green;blue;0;b;8;3;131;6;394.1669291999424;b;1;0.8020779000362381;394.1669291999424;None;Sasha;001;2022_Feb_21_1450;stroop_pup;2021.2.3;60.013779170807645;
yellow;green;0;g;8;4;132;14;397.0165656999452;g;1;0.7042246999917552;397.0165656999452;None;Sasha;001;2022_Feb_21_1450;stroop_pup;2021.2.3;60.013779170807645;
red;blue;0;b;8;5;133;2;399.76645490003284;b;1;0.9446217999793589;399.76645490003284;None;Sasha;001;2022_Feb_21_1450;stroop_pup;2021.2.3;60.013779170807645;
yellow;blue;0;b;8;6;134;15;402.74959080002736;b;1;0.7028184999944642;402.74959080002736;None;Sasha;001;2022_Feb_21_1450;stroop_pup;2021.2.3;60.013779170807645;
yellow;yellow;1;y;8;7;135;12;405.4837418999523;y;1;0.6190879000350833;405.4837418999523;None;Sasha;001;2022_Feb_21_1450;stroop_pup;2021.2.3;60.013779170807645;
blue;blue;1;b;8;8;136;8;408.13308509998024;b;1;0.6659215999534354;408.13308509998024;None;Sasha;001;2022_Feb_21_1450;stroop_pup;2021.2.3;60.013779170807645;
blue;green;0;g;8;9;137;10;410.8332362000365;g;1;0.6990194000536576;410.8332362000365;None;Sasha;001;2022_Feb_21_1450;stroop_pup;2021.2.3;60.013779170807645;
blue;yellow;0;y;8;10;138;11;413.56645010004286;y;1;0.8571585000026971;413.56645010004286;None;Sasha;001;2022_Feb_21_1450;stroop_pup;2021.2.3;60.013779170807645;
red;red;1;r;8;11;139;0;416.46608469996136;r;1;0.8648944000015035;416.46608469996136;None;Sasha;001;2022_Feb_21_1450;stroop_pup;2021.2.3;60.013779170807645;
blue;red;0;r;8;12;140;9;419.3708904000232;b;0;0.8182750000851229;419.3708904000232;None;Sasha;001;2022_Feb_21_1450;stroop_pup;2021.2.3;60.013779170807645;
green;red;0;r;8;13;141;5;422.23265050002374;r;1;1.2043214000295848;422.23265050002374;None;Sasha;001;2022_Feb_21_1450;stroop_pup;2021.2.3;60.013779170807645;
red;green;0;g;8;14;142;1;425.48256040003616;g;1;0.7772798000369221;425.48256040003616;None;Sasha;001;2022_Feb_21_1450;stroop_pup;2021.2.3;60.013779170807645;
red;yellow;0;y;8;15;143;3;428.3013685999904;y;1;0.7112772999098524;428.3013685999904;None;Sasha;001;2022_Feb_21_1450;stroop_pup;2021.2.3;60.013779170807645;
red;yellow;0;y;9;0;144;3;431.04932240000926;y;1;0.37041520001366735;431.04932240000926;None;Sasha;001;2022_Feb_21_1450;stroop_pup;2021.2.3;60.013779170807645;
red;green;0;g;9;1;145;1;433.46563330001663;g;1;0.8631879000458866;433.46563330001663;None;Sasha;001;2022_Feb_21_1450;stroop_pup;2021.2.3;60.013779170807645;
green;red;0;r;9;2;146;5;436.37122640002053;r;1;0.6787776000564918;436.37122640002053;None;Sasha;001;2022_Feb_21_1450;stroop_pup;2021.2.3;60.013779170807645;
blue;green;0;g;9;3;147;10;439.082197300042;g;1;0.9311743000289425;439.082197300042;None;Sasha;001;2022_Feb_21_1450;stroop_pup;2021.2.3;60.013779170807645;
green;yellow;0;y;9;4;148;7;442.0733153000474;y;1;0.561729000066407;442.0733153000474;None;Sasha;001;2022_Feb_21_1450;stroop_pup;2021.2.3;60.013779170807645;
blue;yellow;0;y;9;5;149;11;444.6653604999883;y;1;0.5776186001021415;444.6653604999883;None;Sasha;001;2022_Feb_21_1450;stroop_pup;2021.2.3;60.013779170807645;
blue;blue;1;b;9;6;150;8;447.28328089998104;b;1;0.8060488000046462;447.28328089998104;None;Sasha;001;2022_Feb_21_1450;stroop_pup;2021.2.3;60.013779170807645;
red;blue;0;b;9;7;151;2;450.1365456000203;b;1;0.6260414000134915;450.1365456000203;None;Sasha;001;2022_Feb_21_1450;stroop_pup;2021.2.3;60.013779170807645;
blue;red;0;r;9;8;152;9;452.80392880004365;r;1;0.8145889999577776;452.80392880004365;None;Sasha;001;2022_Feb_21_1450;stroop_pup;2021.2.3;60.013779170807645;
green;blue;0;b;9;9;153;6;455.66500000003725;b;1;1.4690155000425875;455.66500000003725;None;Sasha;001;2022_Feb_21_1450;stroop_pup;2021.2.3;60.013779170807645;
yellow;red;0;r;9;10;154;13;459.18887549999636;r;1;0.8592730999225751;459.18887549999636;None;Sasha;001;2022_Feb_21_1450;stroop_pup;2021.2.3;60.013779170807645;
yellow;green;0;g;9;11;155;14;462.0820590000367;g;1;0.9699077000841498;462.0820590000367;None;Sasha;001;2022_Feb_21_1450;stroop_pup;2021.2.3;60.013779170807645;
yellow;yellow;1;y;9;12;156;12;465.09813419997226;y;1;0.6186345999594778;465.09813419997226;None;Sasha;001;2022_Feb_21_1450;stroop_pup;2021.2.3;60.013779170807645;
green;green;1;g;9;13;157;4;467.7480085999705;g;1;0.4800728999543935;467.7480085999705;None;Sasha;001;2022_Feb_21_1450;stroop_pup;2021.2.3;60.013779170807645;
red;red;1;r;9;14;158;0;470.2645440000342;r;1;0.6321151000447571;470.2645440000342;None;Sasha;001;2022_Feb_21_1450;stroop_pup;2021.2.3;60.013779170807645;
yellow;blue;0;b;9;15;159;15;472.9317124999361;b;1;0.8525126000167802;472.9317124999361;None;Sasha;001;2022_Feb_21_1450;stroop_pup;2021.2.3;60.013779170807645;
